participant_id,trial_type,item_type,response,response_time
01,target,1,1,1.5
01,lure,2,0,2.3
01,target,2,1,1.7
01,target,1,0,2.2
01,lure,2,1,1.8
01,lure,1,0,2.2
01,lure,1,n/a,n/a
01,target,2,1,1.6
02,lure,2,0,2.2
02,lure,1,1,1.9
02,target,1,1,1.2
02,target,2,0,1.5
02,lure,1,1,2.1
02,target,1,1,1.6
02,lure,2,0,2.3
02,target,2,1,1.4
03,lure,1,1,2.4
03,target,1,1,1.8
03,target,2,n/a,n/a
03,lure,2,1,2.5
03,target,2,1,1.6
03,lure,2,0,2.8
03,lure,1,0,2.4
03,target,1,1,1.9